{
  "resourceType": "Bundle",
  "id": "Instance-Bundle-2df32f90-6f95-434e-9c29-4b9b0968f9e8",
  "meta": {
    "profile": [
      "http://hl7.eu/fhir/eps/StructureDefinition/bundle-eu-eps"
    ]
  },
  "identifier": {
    "assigner": {
      "display": "HL7 Europe"
    },
    "system": "urn:oid:2.16.840.1.113883.2.51.999",
    "value": "24699745-2e42-455f-9246-aa15d85b4953"
  },
  "entry": [
    {
      "fullUrl": "urn:uuid:72ba5830-eb77-4019-a4e8-777b7e424855",
      "resource": {
        "resourceType": "Composition",
        "id": "72ba5830-eb77-4019-a4e8-777b7e424855",
        "meta": {
          "profile": [
            "http://hl7.eu/fhir/eps/StructureDefinition/composition-eu-eps"
          ]
        },
        "identifier": {
          "assigner": {
            "display": "HL7 Europe"
          },
          "system": "urn:oid:2.16.840.1.113883.2.51.999",
          "value": "8943de6c-771d-471d-b066-bdbe592790a0"
        },
        "type": {
          "coding": [
            {
              "system": "http://loinc.org",
              "code": "60591-5",
              "display": "European Patient Summary"
            }
          ],
          "text": "European Patient Summary"
        },
        "author": [
          {
            "reference": "urn:uuid:e7527691-d1a5-4616-95cb-4838a511d905"
          }
        ],
        "section": [
          {
            "text": {
              "status": "generated",
              "div": "<div xmlns=\"http://www.w3.org/1999/xhtml\"><table class=\"hl7__ips\"><tr><td>Ischemic heart disease</td><td>2024-12-01</td><td>active</td></tr><tr><td>Hyperlipidemia</td><td>2018-12-09</td><td>active</td></tr><tr><td>Sepsis</td><td>2016-01-28</td><td>active</td></tr><tr><td>Malignant neoplasm of breast</td><td>2012-10-03</td><td>active</td></tr><tr><td>Gingivitis</td><td>2024-12-01</td><td>inactive</td></tr><tr><td>Streptococcal sore throat</td><td>2023-03-03</td><td>inactive</td></tr><tr><td>Acute bronchitis</td><td>2020-10-16</td><td>inactive</td></tr><tr><td>Viral sinusitis</td><td>2020-03-11</td><td>inactive</td></tr><tr><td>Acute bronchitis</td><td>2015-05-31</td><td>inactive</td></tr><tr><td>Acute viral pharyngitis</td><td>2015-05-02</td><td>inactive</td></tr></table></div>"
            },
            "entry": [
              {
                "reference": "urn:uuid:da1849d6-f7c0-49a0-ac82-ad1b2e675af5"
              },
              {
                "reference": "urn:uuid:7037b661-7c36-479a-8702-0c50e4e8d43d"
              },
              {
                "reference": "urn:uuid:8ca2f2f5-2e3e-4544-8699-5280a0633a8b"
              },
              {
                "reference": "urn:uuid:68988956-db10-491b-8db6-7ebca42793bf"
              },
              {
                "reference": "urn:uuid:bba4841d-1994-448d-937a-38c1fce3c272"
              },
              {
                "reference": "urn:uuid:295cbac8-3362-4502-b0f2-40ffb99863e0"
              },
              {
                "reference": "urn:uuid:267f4fb9-5d50-4eba-8cad-68bf685370ef"
              },
              {
                "reference": "urn:uuid:92071cd6-e813-41fa-8cdb-ecc835677cf9"
              },
              {
                "reference": "urn:uuid:ff6d7b3e-523a-4690-bffd-13776fc4b5a4"
              },
              {
                "reference": "urn:uuid:e01f46ea-62b6-4d7b-b782-7532edd1bf29"
              }
            ],
            "code": {
              "coding": [
                {
                  "system": "http://loinc.org",
                  "code": "11450-4",
                  "display": "Problem list - Reported"
                }
              ]
            },
            "title": "Problem list"
          },
          {
            "text": {
              "status": "generated",
              "div": "<div xmlns=\"http://www.w3.org/1999/xhtml\"><table class=\"hl7__ips\"><tr><td>Simvastatin 10 mg oral tablet</td><td>2025-01-12</td><td>Oral tablet</td><td>1 tablet (10 mg) by mouth once daily\"</td><td>Reason: Hyperlipidemia (disorder)</td></tr><tr><td>Clopidogrel (as clopidogrel bisulfate) 75 mg oral tablet</td><td>2024-12-08</td><td>Oral tablet</td><td>1 tablet (75 mg) by mouth once daily\"</td><td></td></tr><tr><td>Simvastatin 20 mg oral tablet</td><td>2024-12-08</td><td>Oral tablet</td><td>1 tablet (20 mg) once daily\"</td><td></td></tr><tr><td>Nitroglycerin 400 microgram/actuation sublingual spray</td><td>2024-12-08</td><td>Sublingual spray</td><td>400 micrograms per spray, spray one metered dose under the tongue as needed for chest pain, repeat every 5 minutes as needed, up to 3 sprays in 15 minutes\"</td><td></td></tr><tr><td>Metoprolol tartrate (as metoprolol succinate) 100 mg prolonged-release oral tablet</td><td>2024-12-08</td><td>Prolonged-release oral tablet</td><td>1 tablet (100 mg) once daily\"</td><td></td></tr></table></div>"
            },
            "entry": [
              {
                "reference": "urn:uuid:1b6bb8a8-1bd4-4643-867b-860e696b6031"
              },
              {
                "reference": "urn:uuid:1b38dcec-74c0-4144-a7bd-374f6eea1032"
              },
              {
                "reference": "urn:uuid:13be9959-610d-4190-a446-103e440f146a"
              },
              {
                "reference": "urn:uuid:64bec587-0be9-4bde-b66e-04fcf2fb1da2"
              },
              {
                "reference": "urn:uuid:4491ea27-10d9-46fb-9c82-1a33cfeffd6a"
              }
            ],
            "code": {
              "coding": [
                {
                  "system": "http://loinc.org",
                  "code": "10160-0",
                  "display": "History of Medication use Narrative"
                }
              ]
            },
            "title": "Medication list"
          },
          {
            "text": {
              "status": "generated",
              "div": "<div xmlns=\"http://www.w3.org/1999/xhtml\"><table class=\"hl7__ips\"><tr><td>No known allergies or intolerances</td></tr></table></div>"
            },
            "entry": [
              {
                "reference": "urn:uuid:6eb28e07-997a-43ed-8e00-124ca985435b"
              }
            ],
            "code": {
              "coding": [
                {
                  "system": "http://loinc.org",
                  "code": "48765-2",
                  "display": "Allergies and adverse reactions Document"
                }
              ]
            },
            "title": "Allergies and Intolerances"
          },
          {
            "text": {
              "status": "generated",
              "div": "<div xmlns=\"http://www.w3.org/1999/xhtml\"><table class=\"hl7__ips\"><tr><td>Postoperative procedure education</td><td>2025-01-12</td><td>History of coronary artery bypass grafting (situation)</td></tr><tr><td>Stair-climbing test</td><td>2025-01-12</td><td>History of coronary artery bypass grafting (situation)</td></tr><tr><td>Walking exercise test</td><td>2025-01-12</td><td>History of coronary artery bypass grafting (situation)</td></tr><tr><td>Discharge to ward</td><td>2025-01-12</td><td>-</td></tr><tr><td>Discharge from hospital</td><td>2025-01-12</td><td>History of coronary artery bypass grafting (situation)</td></tr><tr><td>Electrocardiographic procedure</td><td>2025-01-11</td><td>-</td></tr><tr><td>Plain X-ray of chest</td><td>2025-01-11</td><td>-</td></tr><tr><td>Transfusion of packed red blood cells</td><td>2025-01-10</td><td>-</td></tr><tr><td>Removal of endotracheal tube</td><td>2025-01-09</td><td>-</td></tr><tr><td>Resuscitation using intravenous fluid</td><td>2016-01-28</td><td>Sepsis (disorder)</td></tr><tr><td>Transfer to stepdown unit</td><td>2016-01-28</td><td>Sepsis (disorder)</td></tr></table></div>"
            },
            "entry": [
              {
                "reference": "urn:uuid:e5d5952a-ff88-48b9-8d2d-986ca20d771f"
              },
              {
                "reference": "urn:uuid:92b1ac9e-79e9-4e2c-8509-aad76b2d114a"
              },
              {
                "reference": "urn:uuid:05aa2ac2-23aa-4d8d-b804-fc434468d358"
              },
              {
                "reference": "urn:uuid:9fcd4b49-551f-4f4a-ae5f-6f420ce3d1da"
              },
              {
                "reference": "urn:uuid:cfee18ca-37cc-456b-932c-c41b7fc9323d"
              },
              {
                "reference": "urn:uuid:82f800fe-6260-4b86-8716-f2ef71b01e76"
              },
              {
                "reference": "urn:uuid:9335f810-346c-45c2-8b60-2726aa9771ec"
              },
              {
                "reference": "urn:uuid:270e2189-2c5d-41f4-b13e-49515e48f0c7"
              },
              {
                "reference": "urn:uuid:ed8436d7-4286-4521-bad5-07bbfade44aa"
              },
              {
                "reference": "urn:uuid:527012cc-eb0c-49bc-94ad-55a69cbf9c5b"
              },
              {
                "reference": "urn:uuid:b562627b-f53f-4097-9193-6dca3cd4be8c"
              }
            ],
            "code": {
              "coding": [
                {
                  "system": "http://loinc.org",
                  "code": "47519-4",
                  "display": "History of Procedures Document"
                }
              ]
            },
            "title": "Procedure History list"
          },
          {
            "text": {
              "status": "generated",
              "div": "<div xmlns=\"http://www.w3.org/1999/xhtml\"><table class=\"hl7__ips\"><tr><td>Influenza virus antigen only vaccine product</td><td>2024-12-01</td></tr><tr><td>Clostridium tetani toxoid antigen adsorbed only vaccine product</td><td>2023-11-26</td></tr><tr><td>Live attenuated Human alphaherpesvirus 3 only vaccine product</td><td>2023-11-26</td></tr><tr><td>SARS-CoV-2 mRNA vaccine</td><td>2021-08-15</td></tr></table></div>"
            },
            "entry": [
              {
                "reference": "urn:uuid:15e10fd9-06d2-447d-b879-742cf2aa14d0"
              },
              {
                "reference": "urn:uuid:dd65e3fe-be4b-48ab-8422-ffccbb66bfa0"
              },
              {
                "reference": "urn:uuid:5ed19353-a6aa-4a96-afdf-e915b4bb30c8"
              },
              {
                "reference": "urn:uuid:9a5365ab-4745-4a42-9d1d-d54a412e7d63"
              }
            ],
            "code": {
              "coding": [
                {
                  "system": "http://loinc.org",
                  "code": "11369-6",
                  "display": "History of Immunization Narrative"
                }
              ]
            },
            "title": "Immunizations list"
          }
        ],
        "title": "European Patient Summary",
        "status": "final",
        "subject": {
          "reference": "urn:uuid:3375a7b3-3024-48a2-a3d1-7beb0444c15a"
        },
        "date": "2025-05-30T20:53:43Z",
        "confidentiality": "N"
      }
    },
    {
      "fullUrl": "urn:uuid:3375a7b3-3024-48a2-a3d1-7beb0444c15a",
      "resource": {
        "resourceType": "Patient",
        "id": "3375a7b3-3024-48a2-a3d1-7beb0444c15a",
        "meta": {
          "profile": [
            "http://hl7.eu/fhir/eps/StructureDefinition/patient-eu-eps"
          ]
        },
        "identifier": [
          {
            "type": {
              "coding": [
                {
                  "code": "NI",
                  "system": "http://terminology.hl7.org/CodeSystem/v2-0203"
                }
              ]
            },
            "system": "http://ec.europa.eu/identifier/eci",
            "value": "6132-571926-0"
          },
          {
            "type": {
              "coding": [
                {
                  "code": "MR",
                  "system": "http://terminology.hl7.org/CodeSystem/v2-0203"
                }
              ]
            },
            "system": "http://local.setting.eu/identifier",
            "value": "f952d41f-c3ee-717c-4185-e02cd757ad7e"
          }
        ],
        "name": [
          {
            "given": [
              "Eliane"
            ],
            "family": "Rijneveld",
            "text": "Eliane Rijneveld"
          }
        ],
        "address": [
          {
            "line": [
              "Taille Maréchal 477"
            ],
            "use": "home",
            "type": "physical",
            "city": "Ganshoren",
            "postalCode": "1083",
            "country": "Belgium"
          }
        ],
        "telecom": [
          {
            "system": "phone",
            "value": "+32 0499 89 61 55"
          }
        ],
        "gender": "female",
        "birthDate": "1969-02-25"
      }
    },
    null,
    {
      "fullUrl": "urn:uuid:da1849d6-f7c0-49a0-ac82-ad1b2e675af5",
      "resource": {
        "resourceType": "Condition",
        "id": "da1849d6-f7c0-49a0-ac82-ad1b2e675af5",
        "meta": {
          "profile": [
            "http://hl7.org/fhir/uv/ips/StructureDefinition/Condition-uv-ips"
          ]
        },
        "category": [
          {
            "coding": [
              {
                "code": "problem-list-item",
                "system": "http://terminology.hl7.org/CodeSystem/condition-category",
                "display": "Problem List Item"
              }
            ]
          }
        ],
        "code": {
          "coding": [
            {
              "code": "414545008",
              "system": "http://snomed.info/sct",
              "display": "Ischemic heart disease (disorder)"
            }
          ],
          "text": "Ischemic heart disease"
        },
        "onsetDateTime": "2024-12-01",
        "clinicalStatus": {
          "coding": [
            {
              "code": "active",
              "system": "http://terminology.hl7.org/CodeSystem/condition-clinical"
            }
          ]
        },
        "subject": {
          "reference": "Patient/3375a7b3-3024-48a2-a3d1-7beb0444c15a",
          "display": "Eliane Rijneveld"
        },
        "asserter": {
          "reference": "1561523a-09d5-4877-aa2b-051802876133",
          "display": "Ziekenhuis Inkendaal"
        }
      }
    },
    {
      "fullUrl": "urn:uuid:7037b661-7c36-479a-8702-0c50e4e8d43d",
      "resource": {
        "resourceType": "Condition",
        "id": "7037b661-7c36-479a-8702-0c50e4e8d43d",
        "meta": {
          "profile": [
            "http://hl7.org/fhir/uv/ips/StructureDefinition/Condition-uv-ips"
          ]
        },
        "category": [
          {
            "coding": [
              {
                "code": "problem-list-item",
                "system": "http://terminology.hl7.org/CodeSystem/condition-category",
                "display": "Problem List Item"
              }
            ]
          }
        ],
        "code": {
          "coding": [
            {
              "code": "55822004",
              "system": "http://snomed.info/sct",
              "display": "Hyperlipidemia (disorder)"
            }
          ],
          "text": "Hyperlipidemia"
        },
        "onsetDateTime": "2018-12-09",
        "clinicalStatus": {
          "coding": [
            {
              "code": "active",
              "system": "http://terminology.hl7.org/CodeSystem/condition-clinical"
            }
          ]
        },
        "subject": {
          "reference": "Patient/3375a7b3-3024-48a2-a3d1-7beb0444c15a",
          "display": "Eliane Rijneveld"
        },
        "asserter": {
          "reference": "1561523a-09d5-4877-aa2b-051802876133",
          "display": "Ziekenhuis Inkendaal"
        }
      }
    },
    {
      "fullUrl": "urn:uuid:8ca2f2f5-2e3e-4544-8699-5280a0633a8b",
      "resource": {
        "resourceType": "Condition",
        "id": "8ca2f2f5-2e3e-4544-8699-5280a0633a8b",
        "meta": {
          "profile": [
            "http://hl7.org/fhir/uv/ips/StructureDefinition/Condition-uv-ips"
          ]
        },
        "category": [
          {
            "coding": [
              {
                "code": "problem-list-item",
                "system": "http://terminology.hl7.org/CodeSystem/condition-category",
                "display": "Problem List Item"
              }
            ]
          }
        ],
        "code": {
          "coding": [
            {
              "code": "91302008",
              "system": "http://snomed.info/sct",
              "display": "Sepsis (disorder)"
            }
          ],
          "text": "Sepsis"
        },
        "onsetDateTime": "2016-01-28",
        "clinicalStatus": {
          "coding": [
            {
              "code": "active",
              "system": "http://terminology.hl7.org/CodeSystem/condition-clinical"
            }
          ]
        },
        "subject": {
          "reference": "Patient/3375a7b3-3024-48a2-a3d1-7beb0444c15a",
          "display": "Eliane Rijneveld"
        },
        "asserter": {
          "reference": "1561523a-09d5-4877-aa2b-051802876133",
          "display": "Ziekenhuis Inkendaal"
        }
      }
    },
    {
      "fullUrl": "urn:uuid:68988956-db10-491b-8db6-7ebca42793bf",
      "resource": {
        "resourceType": "Condition",
        "id": "68988956-db10-491b-8db6-7ebca42793bf",
        "meta": {
          "profile": [
            "http://hl7.org/fhir/uv/ips/StructureDefinition/Condition-uv-ips"
          ]
        },
        "category": [
          {
            "coding": [
              {
                "code": "problem-list-item",
                "system": "http://terminology.hl7.org/CodeSystem/condition-category",
                "display": "Problem List Item"
              }
            ]
          }
        ],
        "code": {
          "coding": [
            {
              "code": "254837009",
              "system": "http://snomed.info/sct",
              "display": "Malignant neoplasm of breast (disorder)"
            }
          ],
          "text": "Malignant neoplasm of breast"
        },
        "onsetDateTime": "2012-10-03",
        "clinicalStatus": {
          "coding": [
            {
              "code": "active",
              "system": "http://terminology.hl7.org/CodeSystem/condition-clinical"
            }
          ]
        },
        "subject": {
          "reference": "Patient/3375a7b3-3024-48a2-a3d1-7beb0444c15a",
          "display": "Eliane Rijneveld"
        },
        "asserter": {
          "reference": "1561523a-09d5-4877-aa2b-051802876133",
          "display": "Ziekenhuis Inkendaal"
        }
      }
    },
    {
      "fullUrl": "urn:uuid:bba4841d-1994-448d-937a-38c1fce3c272",
      "resource": {
        "resourceType": "Condition",
        "id": "bba4841d-1994-448d-937a-38c1fce3c272",
        "meta": {
          "profile": [
            "http://hl7.org/fhir/uv/ips/StructureDefinition/Condition-uv-ips"
          ]
        },
        "category": [
          {
            "coding": [
              {
                "code": "problem-list-item",
                "system": "http://terminology.hl7.org/CodeSystem/condition-category",
                "display": "Problem List Item"
              }
            ]
          }
        ],
        "code": {
          "coding": [
            {
              "code": "66383009",
              "system": "http://snomed.info/sct",
              "display": "Gingivitis (disorder)"
            }
          ],
          "text": "Gingivitis"
        },
        "onsetDateTime": "2024-12-01",
        "clinicalStatus": {
          "coding": [
            {
              "code": "inactive",
              "system": "http://terminology.hl7.org/CodeSystem/condition-clinical"
            }
          ]
        },
        "subject": {
          "reference": "Patient/3375a7b3-3024-48a2-a3d1-7beb0444c15a",
          "display": "Eliane Rijneveld"
        },
        "asserter": {
          "reference": "1561523a-09d5-4877-aa2b-051802876133",
          "display": "Ziekenhuis Inkendaal"
        }
      }
    },
    {
      "fullUrl": "urn:uuid:295cbac8-3362-4502-b0f2-40ffb99863e0",
      "resource": {
        "resourceType": "Condition",
        "id": "295cbac8-3362-4502-b0f2-40ffb99863e0",
        "meta": {
          "profile": [
            "http://hl7.org/fhir/uv/ips/StructureDefinition/Condition-uv-ips"
          ]
        },
        "category": [
          {
            "coding": [
              {
                "code": "problem-list-item",
                "system": "http://terminology.hl7.org/CodeSystem/condition-category",
                "display": "Problem List Item"
              }
            ]
          }
        ],
        "code": {
          "coding": [
            {
              "code": "43878008",
              "system": "http://snomed.info/sct",
              "display": "Streptococcal sore throat (disorder)"
            }
          ],
          "text": "Streptococcal sore throat"
        },
        "onsetDateTime": "2023-03-03",
        "clinicalStatus": {
          "coding": [
            {
              "code": "inactive",
              "system": "http://terminology.hl7.org/CodeSystem/condition-clinical"
            }
          ]
        },
        "subject": {
          "reference": "Patient/3375a7b3-3024-48a2-a3d1-7beb0444c15a",
          "display": "Eliane Rijneveld"
        },
        "asserter": {
          "reference": "1561523a-09d5-4877-aa2b-051802876133",
          "display": "Ziekenhuis Inkendaal"
        }
      }
    },
    {
      "fullUrl": "urn:uuid:267f4fb9-5d50-4eba-8cad-68bf685370ef",
      "resource": {
        "resourceType": "Condition",
        "id": "267f4fb9-5d50-4eba-8cad-68bf685370ef",
        "meta": {
          "profile": [
            "http://hl7.org/fhir/uv/ips/StructureDefinition/Condition-uv-ips"
          ]
        },
        "category": [
          {
            "coding": [
              {
                "code": "problem-list-item",
                "system": "http://terminology.hl7.org/CodeSystem/condition-category",
                "display": "Problem List Item"
              }
            ]
          }
        ],
        "code": {
          "coding": [
            {
              "code": "10509002",
              "system": "http://snomed.info/sct",
              "display": "Acute bronchitis (disorder)"
            }
          ],
          "text": "Acute bronchitis"
        },
        "onsetDateTime": "2020-10-16",
        "clinicalStatus": {
          "coding": [
            {
              "code": "inactive",
              "system": "http://terminology.hl7.org/CodeSystem/condition-clinical"
            }
          ]
        },
        "subject": {
          "reference": "Patient/3375a7b3-3024-48a2-a3d1-7beb0444c15a",
          "display": "Eliane Rijneveld"
        },
        "asserter": {
          "reference": "1561523a-09d5-4877-aa2b-051802876133",
          "display": "Ziekenhuis Inkendaal"
        }
      }
    },
    {
      "fullUrl": "urn:uuid:92071cd6-e813-41fa-8cdb-ecc835677cf9",
      "resource": {
        "resourceType": "Condition",
        "id": "92071cd6-e813-41fa-8cdb-ecc835677cf9",
        "meta": {
          "profile": [
            "http://hl7.org/fhir/uv/ips/StructureDefinition/Condition-uv-ips"
          ]
        },
        "category": [
          {
            "coding": [
              {
                "code": "problem-list-item",
                "system": "http://terminology.hl7.org/CodeSystem/condition-category",
                "display": "Problem List Item"
              }
            ]
          }
        ],
        "code": {
          "coding": [
            {
              "code": "444814009",
              "system": "http://snomed.info/sct",
              "display": "Viral sinusitis (disorder)"
            }
          ],
          "text": "Viral sinusitis"
        },
        "onsetDateTime": "2020-03-11",
        "clinicalStatus": {
          "coding": [
            {
              "code": "inactive",
              "system": "http://terminology.hl7.org/CodeSystem/condition-clinical"
            }
          ]
        },
        "subject": {
          "reference": "Patient/3375a7b3-3024-48a2-a3d1-7beb0444c15a",
          "display": "Eliane Rijneveld"
        },
        "asserter": {
          "reference": "1561523a-09d5-4877-aa2b-051802876133",
          "display": "Ziekenhuis Inkendaal"
        }
      }
    },
    {
      "fullUrl": "urn:uuid:ff6d7b3e-523a-4690-bffd-13776fc4b5a4",
      "resource": {
        "resourceType": "Condition",
        "id": "ff6d7b3e-523a-4690-bffd-13776fc4b5a4",
        "meta": {
          "profile": [
            "http://hl7.org/fhir/uv/ips/StructureDefinition/Condition-uv-ips"
          ]
        },
        "category": [
          {
            "coding": [
              {
                "code": "problem-list-item",
                "system": "http://terminology.hl7.org/CodeSystem/condition-category",
                "display": "Problem List Item"
              }
            ]
          }
        ],
        "code": {
          "coding": [
            {
              "code": "10509002",
              "system": "http://snomed.info/sct",
              "display": "Acute bronchitis (disorder)"
            }
          ],
          "text": "Acute bronchitis"
        },
        "onsetDateTime": "2015-05-31",
        "clinicalStatus": {
          "coding": [
            {
              "code": "inactive",
              "system": "http://terminology.hl7.org/CodeSystem/condition-clinical"
            }
          ]
        },
        "subject": {
          "reference": "Patient/3375a7b3-3024-48a2-a3d1-7beb0444c15a",
          "display": "Eliane Rijneveld"
        },
        "asserter": {
          "reference": "1561523a-09d5-4877-aa2b-051802876133",
          "display": "Ziekenhuis Inkendaal"
        }
      }
    },
    {
      "fullUrl": "urn:uuid:e01f46ea-62b6-4d7b-b782-7532edd1bf29",
      "resource": {
        "resourceType": "Condition",
        "id": "e01f46ea-62b6-4d7b-b782-7532edd1bf29",
        "meta": {
          "profile": [
            "http://hl7.org/fhir/uv/ips/StructureDefinition/Condition-uv-ips"
          ]
        },
        "category": [
          {
            "coding": [
              {
                "code": "problem-list-item",
                "system": "http://terminology.hl7.org/CodeSystem/condition-category",
                "display": "Problem List Item"
              }
            ]
          }
        ],
        "code": {
          "coding": [
            {
              "code": "195662009",
              "system": "http://snomed.info/sct",
              "display": "Acute viral pharyngitis (disorder)"
            }
          ],
          "text": "Acute viral pharyngitis"
        },
        "onsetDateTime": "2015-05-02",
        "clinicalStatus": {
          "coding": [
            {
              "code": "inactive",
              "system": "http://terminology.hl7.org/CodeSystem/condition-clinical"
            }
          ]
        },
        "subject": {
          "reference": "Patient/3375a7b3-3024-48a2-a3d1-7beb0444c15a",
          "display": "Eliane Rijneveld"
        },
        "asserter": {
          "reference": "1561523a-09d5-4877-aa2b-051802876133",
          "display": "Ziekenhuis Inkendaal"
        }
      }
    },
    {
      "fullUrl": "urn:uuid:70778650-d8a5-4754-a1c6-15741f85ccb8",
      "resource": {
        "resourceType": "Medication",
        "id": "70778650-d8a5-4754-a1c6-15741f85ccb8",
        "meta": {
          "profile": [
            "http://hl7.org/fhir/uv/ips/StructureDefinition/Medication-uv-ips"
          ]
        },
        "code": {
          "coding": [
            {
              "code": "314231",
              "system": "http://www.nlm.nih.gov/research/umls/rxnorm",
              "display": "simvastatin 10 MG Oral Tablet"
            },
            {
              "code": "319996000",
              "system": "http://snomed.info/sct",
              "display": "Product containing precisely simvastatin 10 milligram/1 each conventional release oral tablet (clinical drug)"
            }
          ],
          "text": "Simvastatin 10 mg oral tablet"
        },
        "form": {
          "coding": [
            {
              "code": "421026006",
              "system": "http://snomed.info/sct",
              "display": "Oral tablet"
            }
          ]
        },
        "ingredient": [
          {
            "itemCodeableConcept": {
              "coding": [
                {
                  "code": "387584000",
                  "system": "http://snomed.info/sct",
                  "display": "Simvastatin"
                }
              ]
            },
            "isActive": true
          }
        ]
      }
    },
    {
      "fullUrl": "urn:uuid:1b6bb8a8-1bd4-4643-867b-860e696b6031",
      "resource": {
        "resourceType": "MedicationStatement",
        "id": "1b6bb8a8-1bd4-4643-867b-860e696b6031",
        "effectivePeriod": {
          "start": "2025-01-12"
        },
        "dosage": [
          {
            "doseAndRate": [
              {
                "doseQuantity": {
                  "value": 1,
                  "unit": "{tbl}",
                  "code": "{tbl}"
                }
              }
            ],
            "timing": {
              "repeat": {
                "frequency": 1,
                "period": 1,
                "periodUnit": "d"
              }
            },
            "text": "1 tablet (10 mg) by mouth once daily",
            "asNeededBoolean": false
          }
        ],
        "reasonCode": [
          {
            "coding": [
              {
                "code": "55822004",
                "system": "http://snomed.info/sct",
                "display": "Hyperlipidemia (disorder)"
              }
            ]
          }
        ],
        "status": "active",
        "medicationReference": {
          "reference": "Medication/70778650-d8a5-4754-a1c6-15741f85ccb8",
          "display": "Simvastatin 10 mg oral tablet"
        },
        "subject": {
          "reference": "Patient/3375a7b3-3024-48a2-a3d1-7beb0444c15a",
          "display": "Eliane Rijneveld"
        }
      }
    },
    {
      "fullUrl": "urn:uuid:423246fd-b2cf-4450-a3b7-976dd4617900",
      "resource": {
        "resourceType": "Medication",
        "id": "423246fd-b2cf-4450-a3b7-976dd4617900",
        "meta": {
          "profile": [
            "http://hl7.org/fhir/uv/ips/StructureDefinition/Medication-uv-ips"
          ]
        },
        "code": {
          "coding": [
            {
              "code": "309362",
              "system": "http://www.nlm.nih.gov/research/umls/rxnorm",
              "display": "clopidogrel 75 MG Oral Tablet"
            },
            {
              "code": "783586007",
              "system": "http://snomed.info/sct",
              "display": "Product containing precisely clopidogrel (as clopidogrel bisulfate) 75 milligram/1 each conventional release oral tablet (clinical drug)"
            }
          ],
          "text": "Clopidogrel (as clopidogrel bisulfate) 75 mg oral tablet"
        },
        "form": {
          "coding": [
            {
              "code": "421026006",
              "system": "http://snomed.info/sct",
              "display": "Oral tablet"
            }
          ]
        },
        "ingredient": [
          {
            "itemCodeableConcept": {
              "coding": [
                {
                  "code": "412354008",
                  "system": "http://snomed.info/sct",
                  "display": "Clopidogrel bisulfate"
                }
              ]
            },
            "isActive": true
          }
        ]
      }
    },
    {
      "fullUrl": "urn:uuid:1b38dcec-74c0-4144-a7bd-374f6eea1032",
      "resource": {
        "resourceType": "MedicationStatement",
        "id": "1b38dcec-74c0-4144-a7bd-374f6eea1032",
        "effectivePeriod": {
          "start": "2024-12-08"
        },
        "dosage": [
          {
            "doseAndRate": [
              {
                "doseQuantity": {
                  "value": 1,
                  "unit": "{tbl}",
                  "code": "{tbl}"
                }
              }
            ],
            "timing": {
              "repeat": {
                "frequency": 1,
                "period": 1,
                "periodUnit": "d"
              }
            },
            "text": "1 tablet (75 mg) by mouth once daily",
            "asNeededBoolean": false
          }
        ],
        "status": "active",
        "medicationReference": {
          "reference": "Medication/423246fd-b2cf-4450-a3b7-976dd4617900",
          "display": "Clopidogrel (as clopidogrel bisulfate) 75 mg oral tablet"
        },
        "subject": {
          "reference": "Patient/3375a7b3-3024-48a2-a3d1-7beb0444c15a",
          "display": "Eliane Rijneveld"
        }
      }
    },
    {
      "fullUrl": "urn:uuid:2419d703-0a5c-4ea6-856d-5960bfc67804",
      "resource": {
        "resourceType": "Medication",
        "id": "2419d703-0a5c-4ea6-856d-5960bfc67804",
        "meta": {
          "profile": [
            "http://hl7.org/fhir/uv/ips/StructureDefinition/Medication-uv-ips"
          ]
        },
        "code": {
          "coding": [
            {
              "code": "312961",
              "system": "http://www.nlm.nih.gov/research/umls/rxnorm",
              "display": "simvastatin 20 MG Oral Tablet"
            },
            {
              "code": "319997009",
              "system": "http://snomed.info/sct",
              "display": "Product containing precisely simvastatin 20 milligram/1 each conventional release oral tablet (clinical drug)"
            }
          ],
          "text": "Simvastatin 20 mg oral tablet"
        },
        "form": {
          "coding": [
            {
              "code": "421026006",
              "system": "http://snomed.info/sct",
              "display": "Oral tablet"
            }
          ]
        },
        "ingredient": [
          {
            "itemCodeableConcept": {
              "coding": [
                {
                  "code": "387584000",
                  "system": "http://snomed.info/sct",
                  "display": "Simvastatin"
                }
              ]
            },
            "isActive": true
          }
        ]
      }
    },
    {
      "fullUrl": "urn:uuid:13be9959-610d-4190-a446-103e440f146a",
      "resource": {
        "resourceType": "MedicationStatement",
        "id": "13be9959-610d-4190-a446-103e440f146a",
        "effectivePeriod": {
          "start": "2024-12-08"
        },
        "dosage": [
          {
            "doseAndRate": [
              {
                "doseQuantity": {
                  "value": 1,
                  "unit": "{tbl}",
                  "code": "{tbl}"
                }
              }
            ],
            "timing": {
              "repeat": {
                "frequency": 1,
                "period": 1,
                "periodUnit": "d"
              }
            },
            "text": "1 tablet (20 mg) once daily",
            "asNeededBoolean": false
          }
        ],
        "status": "active",
        "medicationReference": {
          "reference": "Medication/2419d703-0a5c-4ea6-856d-5960bfc67804",
          "display": "Simvastatin 20 mg oral tablet"
        },
        "subject": {
          "reference": "Patient/3375a7b3-3024-48a2-a3d1-7beb0444c15a",
          "display": "Eliane Rijneveld"
        }
      }
    },
    {
      "fullUrl": "urn:uuid:18263d21-9478-4bdf-a60a-baf0d469b8b9",
      "resource": {
        "resourceType": "Medication",
        "id": "18263d21-9478-4bdf-a60a-baf0d469b8b9",
        "meta": {
          "profile": [
            "http://hl7.org/fhir/uv/ips/StructureDefinition/Medication-uv-ips"
          ]
        },
        "code": {
          "coding": [
            {
              "code": "705129",
              "system": "http://www.nlm.nih.gov/research/umls/rxnorm",
              "display": "nitroglycerin 0.4 MG/ACTUAT Mucosal Spray"
            },
            {
              "code": "425176000",
              "system": "http://snomed.info/sct",
              "display": "Product containing precisely glyceryl trinitrate 400 microgram/1 actuation conventional release sublingual spray (clinical drug)"
            }
          ],
          "text": "Nitroglycerin 400 microgram/actuation sublingual spray"
        },
        "form": {
          "coding": [
            {
              "code": "385074009",
              "system": "http://snomed.info/sct",
              "display": "Sublingual spray"
            }
          ]
        },
        "ingredient": [
          {
            "itemCodeableConcept": {
              "coding": [
                {
                  "code": "387404004",
                  "system": "http://snomed.info/sct",
                  "display": "Glyceryl trinitrate"
                }
              ]
            },
            "isActive": true
          }
        ]
      }
    },
    {
      "fullUrl": "urn:uuid:64bec587-0be9-4bde-b66e-04fcf2fb1da2",
      "resource": {
        "resourceType": "MedicationStatement",
        "id": "64bec587-0be9-4bde-b66e-04fcf2fb1da2",
        "effectivePeriod": {
          "start": "2024-12-08"
        },
        "dosage": [
          {
            "doseAndRate": [
              {
                "doseQuantity": {
                  "value": 400,
                  "unit": "microgram",
                  "code": "ug"
                }
              }
            ],
            "timing": {
              "repeat": {
                "frequency": 1,
                "period": 5,
                "periodUnit": "min"
              }
            },
            "text": "400 micrograms per spray, spray one metered dose under the tongue as needed for chest pain, repeat every 5 minutes as needed, up to 3 sprays in 15 minutes",
            "asNeededBoolean": true
          }
        ],
        "status": "active",
        "medicationReference": {
          "reference": "Medication/18263d21-9478-4bdf-a60a-baf0d469b8b9",
          "display": "Nitroglycerin 400 microgram/actuation sublingual spray"
        },
        "subject": {
          "reference": "Patient/3375a7b3-3024-48a2-a3d1-7beb0444c15a",
          "display": "Eliane Rijneveld"
        }
      }
    },
    {
      "fullUrl": "urn:uuid:78066e3f-87a3-4776-a633-fd3cfdbb263c",
      "resource": {
        "resourceType": "Medication",
        "id": "78066e3f-87a3-4776-a633-fd3cfdbb263c",
        "meta": {
          "profile": [
            "http://hl7.org/fhir/uv/ips/StructureDefinition/Medication-uv-ips"
          ]
        },
        "code": {
          "coding": [
            {
              "code": "866412",
              "system": "http://www.nlm.nih.gov/research/umls/rxnorm",
              "display": "24 HR metoprolol succinate 100 MG Extended Release Oral Tablet"
            },
            {
              "code": "879980009",
              "system": "http://snomed.info/sct",
              "display": "Product containing precisely metoprolol tartrate (as metoprolol succinate) 100 milligram/1 each prolonged-release oral tablet (clinical drug)"
            }
          ],
          "text": "Metoprolol tartrate (as metoprolol succinate) 100 mg prolonged-release oral tablet"
        },
        "form": {
          "coding": [
            {
              "code": "385060002",
              "system": "http://snomed.info/sct",
              "display": "Prolonged-release oral tablet"
            }
          ]
        },
        "ingredient": [
          {
            "itemCodeableConcept": {
              "coding": [
                {
                  "code": "412432007",
                  "system": "http://snomed.info/sct",
                  "display": "Metoprolol succinate"
                }
              ]
            },
            "isActive": true
          }
        ]
      }
    },
    {
      "fullUrl": "urn:uuid:4491ea27-10d9-46fb-9c82-1a33cfeffd6a",
      "resource": {
        "resourceType": "MedicationStatement",
        "id": "4491ea27-10d9-46fb-9c82-1a33cfeffd6a",
        "effectivePeriod": {
          "start": "2024-12-08"
        },
        "dosage": [
          {
            "doseAndRate": [
              {
                "doseQuantity": {
                  "value": 1,
                  "unit": "{tbl}",
                  "code": "{tbl}"
                }
              }
            ],
            "timing": {
              "repeat": {
                "frequency": 1,
                "period": 1,
                "periodUnit": "d"
              }
            },
            "text": "1 tablet (100 mg) once daily",
            "asNeededBoolean": false
          }
        ],
        "status": "active",
        "medicationReference": {
          "reference": "Medication/78066e3f-87a3-4776-a633-fd3cfdbb263c",
          "display": "Metoprolol tartrate (as metoprolol succinate) 100 mg prolonged-release oral tablet"
        },
        "subject": {
          "reference": "Patient/3375a7b3-3024-48a2-a3d1-7beb0444c15a",
          "display": "Eliane Rijneveld"
        }
      }
    },
    {
      "fullUrl": "urn:uuid:6eb28e07-997a-43ed-8e00-124ca985435b",
      "resource": {
        "resourceType": "AllergyIntolerance",
        "id": "6eb28e07-997a-43ed-8e00-124ca985435b",
        "meta": {
          "profile": [
            "http://hl7.eu/fhir/eps/StructureDefinition/allergyIntolerance-eu-eps"
          ]
        },
        "code": {
          "coding": [
            {
              "code": "716186003",
              "system": "http://snomed.info/sct",
              "display": "No known allergy (situation)"
            }
          ]
        },
        "patient": {
          "reference": "Patient/3375a7b3-3024-48a2-a3d1-7beb0444c15a",
          "display": "Eliane Rijneveld"
        },
        "_onsetDateTime": {
          "extension": [
            {
              "url": "http://hl7.org/fhir/StructureDefinition/data-absent-reason",
              "valueCode": "unknown"
            }
          ]
        }
      }
    },
    {
      "fullUrl": "urn:uuid:e5d5952a-ff88-48b9-8d2d-986ca20d771f",
      "resource": {
        "resourceType": "Procedure",
        "id": "e5d5952a-ff88-48b9-8d2d-986ca20d771f",
        "meta": {
          "profile": [
            "http://hl7.org/fhir/uv/ips/StructureDefinition/Procedure-uv-ips"
          ]
        },
        "code": {
          "coding": [
            {
              "code": "243063003",
              "system": "http://snomed.info/sct",
              "display": "Postoperative procedure education (procedure)"
            }
          ],
          "text": "Postoperative procedure education"
        },
        "reasonCode": [
          {
            "coding": [
              {
                "code": "399261000",
                "system": "http://snomed.info/sct",
                "display": "History of coronary artery bypass grafting (situation)"
              }
            ]
          }
        ],
        "status": "completed",
        "subject": {
          "reference": "Patient/3375a7b3-3024-48a2-a3d1-7beb0444c15a",
          "display": "Eliane Rijneveld"
        },
        "performedDateTime": "2025-01-12"
      }
    },
    {
      "fullUrl": "urn:uuid:92b1ac9e-79e9-4e2c-8509-aad76b2d114a",
      "resource": {
        "resourceType": "Procedure",
        "id": "92b1ac9e-79e9-4e2c-8509-aad76b2d114a",
        "meta": {
          "profile": [
            "http://hl7.org/fhir/uv/ips/StructureDefinition/Procedure-uv-ips"
          ]
        },
        "code": {
          "coding": [
            {
              "code": "252482003",
              "system": "http://snomed.info/sct",
              "display": "Stair-climbing test (procedure)"
            }
          ],
          "text": "Stair-climbing test"
        },
        "reasonCode": [
          {
            "coding": [
              {
                "code": "399261000",
                "system": "http://snomed.info/sct",
                "display": "History of coronary artery bypass grafting (situation)"
              }
            ]
          }
        ],
        "status": "completed",
        "subject": {
          "reference": "Patient/3375a7b3-3024-48a2-a3d1-7beb0444c15a",
          "display": "Eliane Rijneveld"
        },
        "performedDateTime": "2025-01-12"
      }
    },
    {
      "fullUrl": "urn:uuid:05aa2ac2-23aa-4d8d-b804-fc434468d358",
      "resource": {
        "resourceType": "Procedure",
        "id": "05aa2ac2-23aa-4d8d-b804-fc434468d358",
        "meta": {
          "profile": [
            "http://hl7.org/fhir/uv/ips/StructureDefinition/Procedure-uv-ips"
          ]
        },
        "code": {
          "coding": [
            {
              "code": "302761001",
              "system": "http://snomed.info/sct",
              "display": "Walking exercise test (procedure)"
            }
          ],
          "text": "Walking exercise test"
        },
        "reasonCode": [
          {
            "coding": [
              {
                "code": "399261000",
                "system": "http://snomed.info/sct",
                "display": "History of coronary artery bypass grafting (situation)"
              }
            ]
          }
        ],
        "status": "completed",
        "subject": {
          "reference": "Patient/3375a7b3-3024-48a2-a3d1-7beb0444c15a",
          "display": "Eliane Rijneveld"
        },
        "performedDateTime": "2025-01-12"
      }
    },
    {
      "fullUrl": "urn:uuid:9fcd4b49-551f-4f4a-ae5f-6f420ce3d1da",
      "resource": {
        "resourceType": "Procedure",
        "id": "9fcd4b49-551f-4f4a-ae5f-6f420ce3d1da",
        "meta": {
          "profile": [
            "http://hl7.org/fhir/uv/ips/StructureDefinition/Procedure-uv-ips"
          ]
        },
        "code": {
          "coding": [
            {
              "code": "306706006",
              "system": "http://snomed.info/sct",
              "display": "Discharge to ward (procedure)"
            }
          ],
          "text": "Discharge to ward"
        },
        "status": "completed",
        "subject": {
          "reference": "Patient/3375a7b3-3024-48a2-a3d1-7beb0444c15a",
          "display": "Eliane Rijneveld"
        },
        "performedDateTime": "2025-01-12"
      }
    },
    {
      "fullUrl": "urn:uuid:cfee18ca-37cc-456b-932c-c41b7fc9323d",
      "resource": {
        "resourceType": "Procedure",
        "id": "cfee18ca-37cc-456b-932c-c41b7fc9323d",
        "meta": {
          "profile": [
            "http://hl7.org/fhir/uv/ips/StructureDefinition/Procedure-uv-ips"
          ]
        },
        "code": {
          "coding": [
            {
              "code": "308283009",
              "system": "http://snomed.info/sct",
              "display": "Discharge from hospital (procedure)"
            }
          ],
          "text": "Discharge from hospital"
        },
        "reasonCode": [
          {
            "coding": [
              {
                "code": "399261000",
                "system": "http://snomed.info/sct",
                "display": "History of coronary artery bypass grafting (situation)"
              }
            ]
          }
        ],
        "status": "completed",
        "subject": {
          "reference": "Patient/3375a7b3-3024-48a2-a3d1-7beb0444c15a",
          "display": "Eliane Rijneveld"
        },
        "performedDateTime": "2025-01-12"
      }
    },
    {
      "fullUrl": "urn:uuid:82f800fe-6260-4b86-8716-f2ef71b01e76",
      "resource": {
        "resourceType": "Procedure",
        "id": "82f800fe-6260-4b86-8716-f2ef71b01e76",
        "meta": {
          "profile": [
            "http://hl7.org/fhir/uv/ips/StructureDefinition/Procedure-uv-ips"
          ]
        },
        "code": {
          "coding": [
            {
              "code": "29303009",
              "system": "http://snomed.info/sct",
              "display": "Electrocardiographic procedure (procedure)"
            }
          ],
          "text": "Electrocardiographic procedure"
        },
        "status": "completed",
        "subject": {
          "reference": "Patient/3375a7b3-3024-48a2-a3d1-7beb0444c15a",
          "display": "Eliane Rijneveld"
        },
        "performedDateTime": "2025-01-11"
      }
    },
    {
      "fullUrl": "urn:uuid:9335f810-346c-45c2-8b60-2726aa9771ec",
      "resource": {
        "resourceType": "Procedure",
        "id": "9335f810-346c-45c2-8b60-2726aa9771ec",
        "meta": {
          "profile": [
            "http://hl7.org/fhir/uv/ips/StructureDefinition/Procedure-uv-ips"
          ]
        },
        "code": {
          "coding": [
            {
              "code": "399208008",
              "system": "http://snomed.info/sct",
              "display": "Plain X-ray of chest (procedure)"
            }
          ],
          "text": "Plain X-ray of chest"
        },
        "status": "completed",
        "subject": {
          "reference": "Patient/3375a7b3-3024-48a2-a3d1-7beb0444c15a",
          "display": "Eliane Rijneveld"
        },
        "performedDateTime": "2025-01-11"
      }
    },
    {
      "fullUrl": "urn:uuid:270e2189-2c5d-41f4-b13e-49515e48f0c7",
      "resource": {
        "resourceType": "Procedure",
        "id": "270e2189-2c5d-41f4-b13e-49515e48f0c7",
        "meta": {
          "profile": [
            "http://hl7.org/fhir/uv/ips/StructureDefinition/Procedure-uv-ips"
          ]
        },
        "code": {
          "coding": [
            {
              "code": "71493000",
              "system": "http://snomed.info/sct",
              "display": "Transfusion of packed red blood cells (procedure)"
            }
          ],
          "text": "Transfusion of packed red blood cells"
        },
        "status": "completed",
        "subject": {
          "reference": "Patient/3375a7b3-3024-48a2-a3d1-7beb0444c15a",
          "display": "Eliane Rijneveld"
        },
        "performedDateTime": "2025-01-10"
      }
    },
    {
      "fullUrl": "urn:uuid:ed8436d7-4286-4521-bad5-07bbfade44aa",
      "resource": {
        "resourceType": "Procedure",
        "id": "ed8436d7-4286-4521-bad5-07bbfade44aa",
        "meta": {
          "profile": [
            "http://hl7.org/fhir/uv/ips/StructureDefinition/Procedure-uv-ips"
          ]
        },
        "code": {
          "coding": [
            {
              "code": "271280005",
              "system": "http://snomed.info/sct",
              "display": "Removal of endotracheal tube (procedure)"
            }
          ],
          "text": "Removal of endotracheal tube"
        },
        "status": "completed",
        "subject": {
          "reference": "Patient/3375a7b3-3024-48a2-a3d1-7beb0444c15a",
          "display": "Eliane Rijneveld"
        },
        "performedDateTime": "2025-01-09"
      }
    },
    {
      "fullUrl": "urn:uuid:527012cc-eb0c-49bc-94ad-55a69cbf9c5b",
      "resource": {
        "resourceType": "Procedure",
        "id": "527012cc-eb0c-49bc-94ad-55a69cbf9c5b",
        "meta": {
          "profile": [
            "http://hl7.org/fhir/uv/ips/StructureDefinition/Procedure-uv-ips"
          ]
        },
        "code": {
          "coding": [
            {
              "code": "430701006",
              "system": "http://snomed.info/sct",
              "display": "Resuscitation using intravenous fluid (procedure)"
            }
          ],
          "text": "Resuscitation using intravenous fluid"
        },
        "reasonCode": [
          {
            "coding": [
              {
                "code": "91302008",
                "system": "http://snomed.info/sct",
                "display": "Sepsis (disorder)"
              }
            ]
          }
        ],
        "status": "completed",
        "subject": {
          "reference": "Patient/3375a7b3-3024-48a2-a3d1-7beb0444c15a",
          "display": "Eliane Rijneveld"
        },
        "performedDateTime": "2016-01-28"
      }
    },
    {
      "fullUrl": "urn:uuid:b562627b-f53f-4097-9193-6dca3cd4be8c",
      "resource": {
        "resourceType": "Procedure",
        "id": "b562627b-f53f-4097-9193-6dca3cd4be8c",
        "meta": {
          "profile": [
            "http://hl7.org/fhir/uv/ips/StructureDefinition/Procedure-uv-ips"
          ]
        },
        "code": {
          "coding": [
            {
              "code": "449214001",
              "system": "http://snomed.info/sct",
              "display": "Transfer to stepdown unit (procedure)"
            }
          ],
          "text": "Transfer to stepdown unit"
        },
        "reasonCode": [
          {
            "coding": [
              {
                "code": "91302008",
                "system": "http://snomed.info/sct",
                "display": "Sepsis (disorder)"
              }
            ]
          }
        ],
        "status": "completed",
        "subject": {
          "reference": "Patient/3375a7b3-3024-48a2-a3d1-7beb0444c15a",
          "display": "Eliane Rijneveld"
        },
        "performedDateTime": "2016-01-28"
      }
    },
    {
      "fullUrl": "urn:uuid:15e10fd9-06d2-447d-b879-742cf2aa14d0",
      "resource": {
        "resourceType": "Immunization",
        "id": "15e10fd9-06d2-447d-b879-742cf2aa14d0",
        "meta": {
          "profile": [
            "http://hl7.org/fhir/uv/ips/StructureDefinition/Immunization-uv-ips"
          ]
        },
        "vaccineCode": {
          "coding": [
            {
              "code": "1181000221105",
              "system": "http://snomed.info/sct",
              "display": "Vaccine product containing Influenza virus antigen"
            },
            {
              "code": "J07BB02",
              "system": "http://www.whocc.no/atc",
              "display": "Influenza, inactivated, split virus"
            },
            {
              "code": "140",
              "system": "http://hl7.org/fhir/sid/cvx",
              "display": "Influenza  seasonal  injectable  preservative free"
            }
          ],
          "text": "Influenza virus antigen only vaccine product"
        },
        "site": {
          "coding": [
            {
              "code": "73776007",
              "system": "http://snomed.info/sct",
              "display": "Structure of muscle of upper arm"
            }
          ],
          "text": "Structure of muscle of upper arm"
        },
        "route": {
          "coding": [
            {
              "code": "78421000",
              "system": "http://snomed.info/sct",
              "display": "Intramuscular route"
            }
          ],
          "text": "Intramuscular route"
        },
        "status": "completed",
        "patient": {
          "reference": "Patient/3375a7b3-3024-48a2-a3d1-7beb0444c15a",
          "display": "Eliane Rijneveld"
        },
        "occurrenceDateTime": "2024-12-01",
        "lotNumber": "LB-ntwhBhjKE",
        "expirationDate": "2025-05-24"
      }
    },
    {
      "fullUrl": "urn:uuid:dd65e3fe-be4b-48ab-8422-ffccbb66bfa0",
      "resource": {
        "resourceType": "Immunization",
        "id": "dd65e3fe-be4b-48ab-8422-ffccbb66bfa0",
        "meta": {
          "profile": [
            "http://hl7.org/fhir/uv/ips/StructureDefinition/Immunization-uv-ips"
          ]
        },
        "vaccineCode": {
          "coding": [
            {
              "code": "777725002",
              "system": "http://snomed.info/sct",
              "display": "Vaccine product containing only Clostridium tetani toxoid antigen adsorbed"
            },
            {
              "code": "J07AM51",
              "system": "http://www.whocc.no/atc",
              "display": "Diphtheria-tetanus vaccines, adult type"
            },
            {
              "code": "113",
              "system": "http://hl7.org/fhir/sid/cvx",
              "display": "Td (adult)  5 Lf tetanus toxoid  preservative free  adsorbed"
            }
          ],
          "text": "Clostridium tetani toxoid antigen adsorbed only vaccine product"
        },
        "site": {
          "coding": [
            {
              "code": "73776007",
              "system": "http://snomed.info/sct",
              "display": "Structure of muscle of upper arm"
            }
          ],
          "text": "Structure of muscle of upper arm"
        },
        "route": {
          "coding": [
            {
              "code": "78421000",
              "system": "http://snomed.info/sct",
              "display": "Intramuscular route"
            }
          ],
          "text": "Intramuscular route"
        },
        "status": "completed",
        "patient": {
          "reference": "Patient/3375a7b3-3024-48a2-a3d1-7beb0444c15a",
          "display": "Eliane Rijneveld"
        },
        "occurrenceDateTime": "2023-11-26",
        "lotNumber": "LV-WacrWIY",
        "expirationDate": "2024-10-14"
      }
    },
    {
      "fullUrl": "urn:uuid:5ed19353-a6aa-4a96-afdf-e915b4bb30c8",
      "resource": {
        "resourceType": "Immunization",
        "id": "5ed19353-a6aa-4a96-afdf-e915b4bb30c8",
        "meta": {
          "profile": [
            "http://hl7.org/fhir/uv/ips/StructureDefinition/Immunization-uv-ips"
          ]
        },
        "vaccineCode": {
          "coding": [
            {
              "code": "2221000221107",
              "system": "http://snomed.info/sct",
              "display": "Live attenuated Varicella-zoster vaccine"
            },
            {
              "code": "J07BK02",
              "system": "http://www.whocc.no/atc",
              "display": "Varicella-zoster vaccines"
            },
            {
              "code": "121",
              "system": "http://hl7.org/fhir/sid/cvx",
              "display": "zoster vaccine  live"
            }
          ],
          "text": "Live attenuated Human alphaherpesvirus 3 only vaccine product"
        },
        "site": {
          "coding": [
            {
              "code": "368208006",
              "system": "http://snomed.info/sct",
              "display": "Structure of skin of upper arm"
            }
          ],
          "text": "Structure of skin of upper arm"
        },
        "route": {
          "coding": [
            {
              "code": "34206005",
              "system": "http://snomed.info/sct",
              "display": "Subcutaneous route"
            }
          ],
          "text": "Subcutaneous route"
        },
        "status": "completed",
        "patient": {
          "reference": "Patient/3375a7b3-3024-48a2-a3d1-7beb0444c15a",
          "display": "Eliane Rijneveld"
        },
        "occurrenceDateTime": "2023-11-26",
        "lotNumber": "FE-BoC0yoHm",
        "expirationDate": "2024-08-31"
      }
    },
    {
      "fullUrl": "urn:uuid:9a5365ab-4745-4a42-9d1d-d54a412e7d63",
      "resource": {
        "resourceType": "Immunization",
        "id": "9a5365ab-4745-4a42-9d1d-d54a412e7d63",
        "meta": {
          "profile": [
            "http://hl7.org/fhir/uv/ips/StructureDefinition/Immunization-uv-ips"
          ]
        },
        "vaccineCode": {
          "coding": [
            {
              "code": "1119349007",
              "system": "http://snomed.info/sct",
              "display": "Vaccine product containing SARS-CoV-2 mRNA"
            },
            {
              "code": "J07BX03",
              "system": "http://www.whocc.no/atc",
              "display": "COVID-19 mRNA vaccines"
            },
            {
              "code": "207",
              "system": "http://hl7.org/fhir/sid/cvx",
              "display": "COVID-19  mRNA  LNP-S  PF  100 mcg/0.5mL dose or 50 mcg/0.25mL dose"
            }
          ],
          "text": "SARS-CoV-2 mRNA vaccine"
        },
        "site": {
          "coding": [
            {
              "code": "73776007",
              "system": "http://snomed.info/sct",
              "display": "Structure of muscle of upper arm"
            }
          ],
          "text": "Structure of muscle of upper arm"
        },
        "route": {
          "coding": [
            {
              "code": "78421000",
              "system": "http://snomed.info/sct",
              "display": "Intramuscular route"
            }
          ],
          "text": "Intramuscular route"
        },
        "status": "completed",
        "patient": {
          "reference": "Patient/3375a7b3-3024-48a2-a3d1-7beb0444c15a",
          "display": "Eliane Rijneveld"
        },
        "occurrenceDateTime": "2021-08-15",
        "lotNumber": "KI-m68y5trG",
        "expirationDate": "2022-01-21"
      }
    }
  ],
  "type": "document",
  "timestamp": "2025-05-30T20:53:43Z"
}
